{
	"resourceType": "Bundle",
	"id": "1afa55c0-ba99-4d76-90d4-87c947b379d6",
	"language": "en",
	"identifier": {
		"system": "https://myvax.kku.ac.th",
		"value": "urn:uvci:01:TH:001377700/28531000087107/0000000001",
		"period": {
			"start": "2021-06-26T14:30:00+07:00"
		}
	},
	"type": "document",
	"timestamp": "2021-06-26T14:30:00+07:00",
	"entry": [
		{
			"fullUrl": "urn:uuid:30551ce1-5a28-4356-b684-1e639094ad4d",
			"resource": {
				"resourceType": "Composition",
				"id": "30551ce1-5a28-4356-b684-1e639094ad4d",
				"status": "final",
				"type": {
					"coding": [
						{
							"system": "http://loinc.org",
							"code": "82593-5",
							"display": "Immunization summary report"
						}
					]
				},
				"category": [
					{
						"coding": [
							{
								"system": "https://standard.etda.or.th/",
								"version": "1.0",
								"code": "2.16.764.1.4.1.1.8.1.1",
								"display": "Message Standard for Vaccination Certificate"
							}
						]
					}
				],
				"subject": {
					"reference": "urn:uuid:2b90dd2b-2dab-4c75-9bb9-a355e07401e8"
				},
				"date": "2021-06-26T14:30:00+07:00",
				"author": [
					{
						"reference": "urn:uuid:45a5c5b1-4ec1-4d60-b4b2-ff5a84a41fd7"
					}
				],
				"title": "Vaccination Certificate",
				"attester": [
					{
						"mode": "legal",
						"time": "2021-06-26T14:30:00+07:00",
						"party": {
							"reference": "urn:uuid:55a5c5b1-4ec1-4d60-b4b2-ff5a84a41fd8"
						}
					}
				],
				"section": [
					{
						"title": "Vaccinations",
						"code": {
							"coding": [
								{
									"system": "http://loinc.org",
									"code": "11369-6",
									"display": "Hx of Immunization"
								}
							]
						},
						"entry": [
							{
								"reference": "urn:uuid:c220e36c-eb67-4fc4-9ba1-2fabc52acec6"
							},
							{
								"reference": "urn:uuid:47524493-846a-4a26-bae2-4ab03e60f02e"
							}
						]
					}
				]
			}
		},
		{
			"fullUrl": "urn:uuid:2b90dd2b-2dab-4c75-9bb9-a355e07401e8",
			"resource": {
				"resourceType": "Patient",
				"id": "2b90dd2b-2dab-4c75-9bb9-a355e07401e8",
				"extension": [
					{
						"url": "http://hl7.org/fhir/StructureDefinition/patient-nationality",
						"valueCodeableConcept": {
							"coding": [
								{
									"system": "urn:iso:std:iso:3166",
									"code": "TH",
									"display": "Thailand"
								}
							]
						}
					}
				],
				"identifier": [
					{
						"type": {
							"coding": [
								{
									"system": "http://terminology.hl7.org/CodeSystem/v2-0203",
									"code": "NNTHA",
									"display": "National Person Identifier"
								}
							]
						},
						"value": "1409900727635"
					},
					{
						"type": {
							"coding": [
								{
									"system": "http://terminology.hl7.org/CodeSystem/v2-0203",
									"code": "PPN",
									"display": "Passport number"
								}
							]
						},
						"value": "AA1234567"
					},
					{
						"type": {
							"coding": [
								{
									"system": "http://terminology.hl7.org/CodeSystem/v2-0203",
									"code": "MR",
									"display": "Medical record number"
								}
							]
						},
						"value": "AB12345"
					}
				],
				"name": [
					{
						"extension": [
							{
								"url": "http://hl7.org/fhir/StructureDefinition/language",
								"valueCode": "en"
							}
						],
						"family": "Na Nakhonphanom",
						"given": [
							"Thanaphop"
						],
						"prefix": [
							"MR."
						]
					}
				],
				"gender": "male",
				"birthDate": "1990-12-14",
				"address": [
					{
						"country": "TH"
					}
				]
			}
		},
		{
			"fullUrl": "urn:uuid:45a5c5b1-4ec1-4d60-b4b2-ff5a84a41fd7",
			"resource": {
				"resourceType": "Organization",
				"id": "45a5c5b1-4ec1-4d60-b4b2-ff5a84a41fd7",
				"identifier": [
					{
						"type": {
							"coding": [
								{
									"system": "http://terminology.hl7.org/CodeSystem/v2-0203",
									"code": "PRN",
									"display": "Provider number"
								}
							]
						},
						"system": "http://203.157.10.8/hcode_2020/index.html",
						"value": "001377700"
					}
				],
				"name": "Srinagarind Hospital, Khon Kaen University",
				"telecom": [
					{
						"system": "phone",
						"value": "+6643363387"
					}
				],
				"address": [
					{
						"line": [
							"123 Mittraparp Highway, Muang District, Khon Kaen"
						],
						"postalCode": "40002",
						"country": "TH"
					}
				]
			}
		},
		{
			"fullUrl": "urn:uuid:55a5c5b1-4ec1-4d60-b4b2-ff5a84a41fd8",
			"resource": {
				"resourceType": "Practitioner",
				"id": "55a5c5b1-4ec1-4d60-b4b2-ff5a84a41fd8",
				"identifier": [
					{
						"type": {
							"coding": [
								{
									"system": "http://terminology.hl7.org/CodeSystem/v2-0203",
									"code": "LN",
									"display": "License number"
								}
							]
						},
						"value": "10001",
						"assigner": {
							"identifier": {
								"type": {
									"coding": [
										{
											"system": "http://terminology.hl7.org/CodeSystem/v2-0203",
											"code": "XX",
											"display": "Organization identifier"
										}
									]
								},
								"system": "http://203.157.10.8/hcode_2020/index.html",
								"value": "001225400"
							},
							"display": "Department of disease control, Ministry of Public Health, Thailand"
						}
					}
				],
				"name": [
					{
						"extension": [
							{
								"url": "http://hl7.org/fhir/StructureDefinition/language",
								"valueCode": "en"
							}
						],
						"family": "Na Nakhonphanom",
						"given": [
							"Thanaphop"
						],
						"prefix": [
							"Dr."
						]
					}
				],
				"telecom": [
					{
						"system": "email",
						"value": "thanapna@kku.ac.th"
					}
				]
			}
		},
		{
			"fullUrl": "urn:uuid:c220e36c-eb67-4fc4-9ba1-2fabc52acec6",
			"resource": {
				"resourceType": "Immunization",
				"id": "c220e36c-eb67-4fc4-9ba1-2fabc52acec6",
				"identifier": [
					{
						"type": {
							"coding": [
								{
									"system": "http://terminology.hl7.org/CodeSystem/v2-0203",
									"code": "VN",
									"display": "Visit number"
								}
							]
						},
						"system": "https://myvax.kku.ac.th",
						"value": "VC20210421/28531000087107/0000000001"
					}
				],
				"status": "completed",
				"vaccineCode": {
					"coding": [
						{
							"system": "http://id.who.int/icd11/mms",
							"code": "XM1NL1",
							"display": "COVID-19 vaccine, inactivated virus"
						},
						{
							"system": "http://snomed.info/sct",
							"code": "1157024006",
							"display": "Inactivated whole SARS-CoV-2 antigen vaccine"
						},
						{
							"system": "https://www.whocc.no/atc_ddd_index",
							"code": "J07BX03",
							"display": "Covid-19 vaccines"
						},
						{
							"system": "https://tmt.this.or.th",
							"code": "1178033",
							"display": "CORONAVAC (SINOVAC LIFE SCIENCES, CHINA) (sars-cov-2 vaccine (vero cell), inactivated 600 SU/0.5 mL) suspension for injection, 0.5 mL vial (TPU)"
						},
						{
							"system": "http://hl7.org/fhir/sid/cvx",
							"code": "213",
							"display": "SARS-COV-2 (COVID-19) vaccine, UNSPECIFIED"
						}
					],
					"text": "CoronaVac"
				},
				"patient": {
					"reference": "urn:uuid:2b90dd2b-2dab-4c75-9bb9-a355e07401e8"
				},
				"occurrenceDateTime": "2021-04-21",
				"manufacturer": {
					"identifier": {
						"type": {
							"coding": [
								{
									"system": "http://terminology.hl7.org/CodeSystem/v2-0203",
									"code": "XX",
									"display": "Organization identifier"
								}
							]
						},
						"system": "https://tmt.this.or.th",
						"value": "1178022"
					},
					"display": "SINOVAC LIFE SCIENCES, CHINA"
				},
				"lotNumber": "K202103018",
				"performer": [
					{
						"actor": {
							"reference": "urn:uuid:2b90dd2b-2dab-4c75-9bb9-ff5a84a41fd7"
						}
					}
				],
				"protocolApplied": [
					{
						"targetDisease": [
							{
								"coding": [
									{
										"system": "http://id.who.int/icd11/mms",
										"code": "XN109",
										"display": "SARS-CoV-2"
									},
									{
										"system": "http://snomed.info/sct",
										"code": "840533007",
										"display": "SARS-CoV-2"
									}
								],
								"text": "SARS-CoV-2"
							},
							{
								"coding": [
									{
										"system": "http://id.who.int/icd11/mms",
										"code": "RA01",
										"display": "COVID-19"
									},
									{
										"system": "http://snomed.info/sct",
										"code": "840539006",
										"display": "COVID-19"
									}
								],
								"text": "COVID-19"
							}
						],
						"doseNumberPositiveInt": 1,
						"seriesDosesPositiveInt": 2
					}
				]
			}
		},
		{
			"fullUrl": "urn:uuid:47524493-846a-4a26-bae2-4ab03e60f02e",
			"resource": {
				"resourceType": "Immunization",
				"id": "47524493-846a-4a26-bae2-4ab03e60f02e",
				"identifier": [
					{
						"type": {
							"coding": [
								{
									"system": "http://terminology.hl7.org/CodeSystem/v2-0203",
									"code": "VN",
									"display": "Visit number"
								}
							]
						},
						"system": "https://myvax.kku.ac.th",
						"value": "VC20210519/28531000087107/0000000001"
					}
				],
				"status": "completed",
				"vaccineCode": {
					"coding": [
						{
							"system": "http://id.who.int/icd11/mms",
							"code": "XM1NL1",
							"display": "COVID-19 vaccine, inactivated virus"
						},
						{
							"system": "http://snomed.info/sct",
							"code": "1157024006",
							"display": "Inactivated whole SARS-CoV-2 antigen vaccine"
						},
						{
							"system": "https://www.whocc.no/atc_ddd_index",
							"code": "J07BX03",
							"display": "Covid-19 vaccines"
						},
						{
							"system": "https://tmt.this.or.th",
							"code": "1178033",
							"display": "CORONAVAC (SINOVAC LIFE SCIENCES, CHINA) (sars-cov-2 vaccine (vero cell), inactivated 600 SU/0.5 mL) suspension for injection, 0.5 mL vial (TPU)"
						},
						{
							"system": "http://hl7.org/fhir/sid/cvx",
							"code": "213",
							"display": "SARS-COV-2 (COVID-19) vaccine, UNSPECIFIED"
						}
					],
					"text": "CoronaVac"
				},
				"patient": {
					"reference": "urn:uuid:2b90dd2b-2dab-4c75-9bb9-a355e07401e8"
				},
				"occurrenceDateTime": "2021-05-19",
				"manufacturer": {
					"identifier": {
						"type": {
							"coding": [
								{
									"system": "http://terminology.hl7.org/CodeSystem/v2-0203",
									"code": "XX",
									"display": "Organization identifier"
								}
							]
						},
						"system": "https://tmt.this.or.th",
						"value": "1178022"
					},
					"display": "SINOVAC LIFE SCIENCES, CHINA"
				},
				"lotNumber": "K202103018",
				"performer": [
					{
						"actor": {
							"reference": "urn:uuid:2b90dd2b-2dab-4c75-9bb9-ff5a84a41fd7"
						}
					}
				],
				"protocolApplied": [
					{
						"targetDisease": [
							{
								"coding": [
									{
										"system": "http://id.who.int/icd11/mms",
										"code": "XN109",
										"display": "SARS-CoV-2"
									},
									{
										"system": "http://snomed.info/sct",
										"code": "840533007",
										"display": "SARS-CoV-2"
									}
								],
								"text": "SARS-CoV-2"
							},
							{
								"coding": [
									{
										"system": "http://id.who.int/icd11/mms",
										"code": "RA01",
										"display": "COVID-19"
									},
									{
										"system": "http://snomed.info/sct",
										"code": "840539006",
										"display": "COVID-19"
									}
								],
								"text": "COVID-19"
							}
						],
						"doseNumberPositiveInt": 2,
						"seriesDosesPositiveInt": 2
					}
				]
			}
		},
		{
			"fullUrl": "urn:uuid:47524493-846a-4a26-bae2-4ab03e60f03a",
			"resource": {
				"resourceType": "Provenance",
				"id": "47524493-846a-4a26-bae2-4ab03e60f03a",
				"target": [
					{
						"reference": "urn:uuid:1afa55c0-ba99-4d76-90d4-87c947b379d6"
					}
				],
				"recorded": "2021-06-26T14:30:00+07:00",
				"agent": [
					{
						"type": {
							"coding": [
								{
									"system": "http://terminology.hl7.org/CodeSystem/provenance-participant-type",
									"code": "legal",
									"display": "Legal Authenticator"
								}
							]
						},
						"who": {
							"reference": "urn:uuid:55a5c5b1-4ec1-4d60-b4b2-ff5a84a41fd8"
						}
					}
				],
				"signature": [
					{
						"type": [
							{
								"system": "http://hl7.org/fhir/R4/codesystem-signature-type.html",
								"code": "1.2.840.10065.1.12.1.18",
								"display": "Timestamp Signature"
							}
						],
						"when": "2021-06-26T14:30:00+07:00",
						"who": {
							"reference": "urn:uuid:55a5c5b1-4ec1-4d60-b4b2-ff5a84a41fd8"
						},
						"data": "To be filled in"
					}
				]
			}
		},
		{
			"fullUrl": "urn:uuid:47524493-846a-4a26-bae2-4ab03e60f04d",
			"resource": {
				"resourceType": "Binary",
				"id": "47524493-846a-4a26-bae2-4ab03e60f04d",
				"contentType": "image/png",
				"data": "To be filled in"
			}
		},
		{
			"fullUrl": "urn:uuid:30551ce1-5a28-4356-b684-4ab03e60f05e",
			"resource": {
				"resourceType": "DocumentReference",
				"id": "30551ce1-5a28-4356-b684-4ab03e60f05e",
				"masterIdentifier": {
					"system": "https://co19cert.moph.go.th/",
					"value": "{16E58BC9-D125-4962-9A65-A264C3C10ABA}"
				},
				"identifier": [
					{
						"system": "https://co19cert.moph.go.th/",
						"value": "0000855723"
					}
				],
				"status": "current",
				"type": {
					"coding": [
						{
							"system": "http://loinc.org",
							"code": "55107-7",
							"display": "Addendum Document"
						}
					]
				},
				"category": [
					{
						"coding": [
							{
								"system": "http://loinc.org",
								"code": "82593-5",
								"display": "Immunization summary report"
							}
						]
					}
				],
				"subject": {
					"reference": "urn:uuid:2b90dd2b-2dab-4c75-9bb9-a355e07401e8"
				},
				"authenticator": {
					"identifier": {
						"type": {
							"coding": [
								{
									"system": "http://terminology.hl7.org/CodeSystem/v2-0203",
									"code": "XX",
									"display": "Organization identifier"
								}
							]
						},
						"system": "http://203.157.10.8/hcode_2020/index.html",
						"value": "001225400"
					},
					"display": "Department of disease control, Ministry of Public Health, Thailand"
				},
				"content": [
					{
						"attachment": {
							"url": "https://co19cert.moph.go.th/cert?id={16E58BC9-D125-4962-9A65-A264C3C10ABA}",
							"title": "Thailand National Certificate of COVID-19 Vaccination"
						}
					}
				]
			}
		}
	]
}
